ENVI
description = {
  SeaWiFS Resampling Filter Functions}
samples = 775
lines   = 8
bands   = 1
header offset = 0
file type = ENVI Spectral Library
data type = 4
interleave = bsq
byte order = 0
wavelength units = Micrometers
z plot titles = {Wavelength, Value}
z plot range = {0.00, 1.00}
reflectance scale factor = 1.0
band names = {SeaWiFS Band Filter Functions}
spectra names = {
 SeaWiFS Band 1, SeaWiFS Band 2, SeaWiFS Band 3, SeaWiFS Band 4, 
 SeaWiFS Band 5, SeaWiFS Band 6, SeaWiFS Band 7, SeaWiFS Band 8}
wavelength = {
 0.37800, 0.37900, 0.38000, 0.38100, 0.38200, 0.38300, 0.38400, 0.38500,
 0.38600, 0.38700, 0.38800, 0.38900, 0.39000, 0.39100, 0.39200, 0.39300,
 0.39400, 0.39500, 0.39600, 0.39700, 0.39800, 0.39900, 0.40000, 0.40100,
 0.40200, 0.40300, 0.40400, 0.40500, 0.40600, 0.40700, 0.40800, 0.40900,
 0.41000, 0.41100, 0.41200, 0.41300, 0.41400, 0.41500, 0.41600, 0.41700,
 0.41800, 0.41900, 0.42000, 0.42100, 0.42200, 0.42300, 0.42400, 0.42500,
 0.42600, 0.42700, 0.42800, 0.42900, 0.43000, 0.43100, 0.43200, 0.43300,
 0.43400, 0.43500, 0.43600, 0.43700, 0.43800, 0.43900, 0.44000, 0.44100,
 0.44200, 0.44300, 0.44400, 0.44500, 0.44600, 0.44700, 0.44800, 0.44900,
 0.45000, 0.45100, 0.45200, 0.45300, 0.45400, 0.45500, 0.45600, 0.45700,
 0.45800, 0.45900, 0.46000, 0.46100, 0.46200, 0.46300, 0.46400, 0.46500,
 0.46600, 0.46700, 0.46800, 0.46900, 0.47000, 0.47100, 0.47200, 0.47300,
 0.47400, 0.47500, 0.47600, 0.47700, 0.47800, 0.47900, 0.48000, 0.48100,
 0.48200, 0.48300, 0.48400, 0.48500, 0.48600, 0.48700, 0.48800, 0.48900,
 0.49000, 0.49100, 0.49200, 0.49300, 0.49400, 0.49500, 0.49600, 0.49700,
 0.49800, 0.49900, 0.50000, 0.50100, 0.50200, 0.50300, 0.50400, 0.50500,
 0.50600, 0.50700, 0.50800, 0.50900, 0.51000, 0.51100, 0.51200, 0.51300,
 0.51400, 0.51500, 0.51600, 0.51700, 0.51800, 0.51900, 0.52000, 0.52100,
 0.52200, 0.52300, 0.52400, 0.52500, 0.52600, 0.52700, 0.52800, 0.52900,
 0.53000, 0.53100, 0.53200, 0.53300, 0.53400, 0.53500, 0.53600, 0.53700,
 0.53800, 0.53900, 0.54000, 0.54100, 0.54200, 0.54300, 0.54400, 0.54500,
 0.54600, 0.54700, 0.54800, 0.54900, 0.55000, 0.55100, 0.55200, 0.55300,
 0.55400, 0.55500, 0.55600, 0.55700, 0.55800, 0.55900, 0.56000, 0.56100,
 0.56200, 0.56300, 0.56400, 0.56500, 0.56600, 0.56700, 0.56800, 0.56900,
 0.57000, 0.57100, 0.57200, 0.57300, 0.57400, 0.57500, 0.57600, 0.57700,
 0.57800, 0.57900, 0.58000, 0.58100, 0.58200, 0.58300, 0.58400, 0.58500,
 0.58600, 0.58700, 0.58800, 0.58900, 0.59000, 0.59100, 0.59200, 0.59300,
 0.59400, 0.59500, 0.59600, 0.59700, 0.59800, 0.59900, 0.60000, 0.60100,
 0.60200, 0.60300, 0.60400, 0.60500, 0.60600, 0.60700, 0.60800, 0.60900,
 0.61000, 0.61100, 0.61200, 0.61300, 0.61400, 0.61500, 0.61600, 0.61700,
 0.61800, 0.61900, 0.62000, 0.62100, 0.62200, 0.62300, 0.62400, 0.62500,
 0.62600, 0.62700, 0.62800, 0.62900, 0.63000, 0.63100, 0.63200, 0.63300,
 0.63400, 0.63500, 0.63600, 0.63700, 0.63800, 0.63900, 0.64000, 0.64100,
 0.64200, 0.64300, 0.64400, 0.64500, 0.64600, 0.64700, 0.64800, 0.64900,
 0.65000, 0.65100, 0.65200, 0.65300, 0.65400, 0.65500, 0.65600, 0.65700,
 0.65800, 0.65900, 0.66000, 0.66100, 0.66200, 0.66300, 0.66400, 0.66500,
 0.66600, 0.66700, 0.66800, 0.66900, 0.67000, 0.67100, 0.67200, 0.67300,
 0.67400, 0.67500, 0.67600, 0.67700, 0.67800, 0.67900, 0.68000, 0.68100,
 0.68200, 0.68300, 0.68400, 0.68500, 0.68600, 0.68700, 0.68800, 0.68900,
 0.69000, 0.69100, 0.69200, 0.69300, 0.69400, 0.69500, 0.69600, 0.69700,
 0.69800, 0.69900, 0.70000, 0.70100, 0.70200, 0.70300, 0.70400, 0.70500,
 0.70600, 0.70700, 0.70800, 0.70900, 0.71000, 0.71100, 0.71200, 0.71300,
 0.71400, 0.71500, 0.71600, 0.71700, 0.71800, 0.71900, 0.72000, 0.72100,
 0.72200, 0.72300, 0.72400, 0.72500, 0.72600, 0.72700, 0.72800, 0.72900,
 0.73000, 0.73100, 0.73200, 0.73300, 0.73400, 0.73500, 0.73600, 0.73700,
 0.73800, 0.73900, 0.74000, 0.74100, 0.74200, 0.74300, 0.74400, 0.74500,
 0.74600, 0.74700, 0.74800, 0.74900, 0.75000, 0.75100, 0.75200, 0.75300,
 0.75400, 0.75500, 0.75600, 0.75700, 0.75800, 0.75900, 0.76000, 0.76100,
 0.76200, 0.76300, 0.76400, 0.76500, 0.76600, 0.76700, 0.76800, 0.76900,
 0.77000, 0.77100, 0.77200, 0.77300, 0.77400, 0.77500, 0.77600, 0.77700,
 0.77800, 0.77900, 0.78000, 0.78100, 0.78200, 0.78300, 0.78400, 0.78500,
 0.78600, 0.78700, 0.78800, 0.78900, 0.79000, 0.79100, 0.79200, 0.79300,
 0.79400, 0.79500, 0.79600, 0.79700, 0.79800, 0.79900, 0.80000, 0.80100,
 0.80200, 0.80300, 0.80400, 0.80500, 0.80600, 0.80700, 0.80800, 0.80900,
 0.81000, 0.81100, 0.81200, 0.81300, 0.81400, 0.81500, 0.81600, 0.81700,
 0.81800, 0.81900, 0.82000, 0.82100, 0.82200, 0.82300, 0.82400, 0.82500,
 0.82600, 0.82700, 0.82800, 0.82900, 0.83000, 0.83100, 0.83200, 0.83300,
 0.83400, 0.83500, 0.83600, 0.83700, 0.83800, 0.83900, 0.84000, 0.84100,
 0.84200, 0.84300, 0.84400, 0.84500, 0.84600, 0.84700, 0.84800, 0.84900,
 0.85000, 0.85100, 0.85200, 0.85300, 0.85400, 0.85500, 0.85600, 0.85700,
 0.85800, 0.85900, 0.86000, 0.86100, 0.86200, 0.86300, 0.86400, 0.86500,
 0.86600, 0.86700, 0.86800, 0.86900, 0.87000, 0.87100, 0.87200, 0.87300,
 0.87400, 0.87500, 0.87600, 0.87700, 0.87800, 0.87900, 0.88000, 0.88100,
 0.88200, 0.88300, 0.88400, 0.88500, 0.88600, 0.88700, 0.88800, 0.88900,
 0.89000, 0.89100, 0.89200, 0.89300, 0.89400, 0.89500, 0.89600, 0.89700,
 0.89800, 0.89900, 0.90000, 0.90100, 0.90200, 0.90300, 0.90400, 0.90500,
 0.90600, 0.90700, 0.90800, 0.90900, 0.91000, 0.91100, 0.91200, 0.91300,
 0.91400, 0.91500, 0.91600, 0.91700, 0.91800, 0.91900, 0.92000, 0.92100,
 0.92200, 0.92300, 0.92400, 0.92500, 0.92600, 0.92700, 0.92800, 0.92900,
 0.93000, 0.93100, 0.93200, 0.93300, 0.93400, 0.93500, 0.93600, 0.93700,
 0.93800, 0.93900, 0.94000, 0.94100, 0.94200, 0.94300, 0.94400, 0.94500,
 0.94600, 0.94700, 0.94800, 0.94900, 0.95000, 0.95100, 0.95200, 0.95300,
 0.95400, 0.95500, 0.95600, 0.95700, 0.95800, 0.95900, 0.96000, 0.96100,
 0.96200, 0.96300, 0.96400, 0.96500, 0.96600, 0.96700, 0.96800, 0.96900,
 0.97000, 0.97100, 0.97200, 0.97300, 0.97400, 0.97500, 0.97600, 0.97700,
 0.97800, 0.97900, 0.98000, 0.98100, 0.98200, 0.98300, 0.98400, 0.98500,
 0.98600, 0.98700, 0.98800, 0.98900, 0.99000, 0.99100, 0.99200, 0.99300,
 0.99400, 0.99500, 0.99600, 0.99700, 0.99800, 0.99900, 1.00000, 1.00100,
 1.00200, 1.00300, 1.00400, 1.00500, 1.00600, 1.00700, 1.00800, 1.00900,
 1.01000, 1.01100, 1.01200, 1.01300, 1.01400, 1.01500, 1.01600, 1.01700,
 1.01800, 1.01900, 1.02000, 1.02100, 1.02200, 1.02300, 1.02400, 1.02500,
 1.02600, 1.02700, 1.02800, 1.02900, 1.03000, 1.03100, 1.03200, 1.03300,
 1.03400, 1.03500, 1.03600, 1.03700, 1.03800, 1.03900, 1.04000, 1.04100,
 1.04200, 1.04300, 1.04400, 1.04500, 1.04600, 1.04700, 1.04800, 1.04900,
 1.05000, 1.05100, 1.05200, 1.05300, 1.05400, 1.05500, 1.05600, 1.05700,
 1.05800, 1.05900, 1.06000, 1.06100, 1.06200, 1.06300, 1.06400, 1.06500,
 1.06600, 1.06700, 1.06800, 1.06900, 1.07000, 1.07100, 1.07200, 1.07300,
 1.07400, 1.07500, 1.07600, 1.07700, 1.07800, 1.07900, 1.08000, 1.08100,
 1.08200, 1.08300, 1.08400, 1.08500, 1.08600, 1.08700, 1.08800, 1.08900,
 1.09000, 1.09100, 1.09200, 1.09300, 1.09400, 1.09500, 1.09600, 1.09700,
 1.09800, 1.09900, 1.10000, 1.10100, 1.10200, 1.10300, 1.10400, 1.10500,
 1.10600, 1.10700, 1.10800, 1.10900, 1.11000, 1.11100, 1.11200, 1.11300,
 1.11400, 1.11500, 1.11600, 1.11700, 1.11800, 1.11900, 1.12000, 1.12100,
 1.12200, 1.12300, 1.12400, 1.12500, 1.12600, 1.12700, 1.12800, 1.12900,
 1.13000, 1.13100, 1.13200, 1.13300, 1.13400, 1.13500, 1.13600, 1.13700,
 1.13800, 1.13900, 1.14000, 1.14100, 1.14200, 1.14300, 1.14400, 1.14500,
 1.14600, 1.14700, 1.14800, 1.14900, 1.15000, 1.15100, 1.15200}
